study_word,test,trials.thisRepN,trials.thisTrialN,trials.thisN,trials.thisIndex,trials_2.thisRepN,trials_2.thisTrialN,trials_2.thisN,trials_2.thisIndex,thisRow.t,notes,trial.started,text.started,slider.started,text.stopped,trial.stopped,slider.response,slider.rt,test.started,text_2.started,textbox.started,text_3.started,mouse.started,test.stopped,textbox.text,mouse.x,mouse.y,mouse.leftButton,mouse.midButton,mouse.rightButton,mouse.time,mouse.clicked_name,participant,session,date,expName,psychopyVersion,frameRate,expStart,
chart,,0,0,0,6,,,,,0.075407600030303,,0.0121800999622792,0.075407600030303,0.075407600030303,8.085387099999934,9.355509200133383,4.225925925925926,9.312298000091687,,,,,,,,,,,,,,,552708,001,2024-11-07_21h06.39.213,word priming,2024.1.5,None,2024-11-07 21h06.50.199891 +0530,
phone,,0,1,1,2,,,,,9.387255999958143,,9.356116800103337,9.387255999958143,9.387255999958143,,10.90633360017091,2.637037037037037,1.5200104999821633,,,,,,,,,,,,,,,552708,001,2024-11-07_21h06.39.213,word priming,2024.1.5,None,2024-11-07 21h06.50.199891 +0530,
T-shirt,,0,2,2,7,,,,,10.936861400026828,,10.906749299960211,10.936861400026828,10.936861400026828,,12.558188599999994,3.5407407407407407,1.621210299897939,,,,,,,,,,,,,,,552708,001,2024-11-07_21h06.39.213,word priming,2024.1.5,None,2024-11-07 21h06.50.199891 +0530,
police,,0,3,3,12,,,,,12.586127000162378,,12.558636500034481,12.586127000162378,12.586127000162378,,13.730649900157005,3.5407407407407407,1.1446720000822097,,,,,,,,,,,,,,,552708,001,2024-11-07_21h06.39.213,word priming,2024.1.5,None,2024-11-07 21h06.50.199891 +0530,
case,,0,4,4,10,,,,,13.758139800047502,,13.731047300156206,13.758139800047502,13.758139800047502,,15.140719700139016,2.4037037037037035,1.3810865001287311,,,,,,,,,,,,,,,552708,001,2024-11-07_21h06.39.213,word priming,2024.1.5,None,2024-11-07 21h06.50.199891 +0530,
marble,,0,5,5,3,,,,,15.166234000120312,,15.141246600076556,15.166234000120312,15.166234000120312,,16.80815020017326,3.7296296296296294,1.6407731999643147,,,,,,,,,,,,,,,552708,001,2024-11-07_21h06.39.213,word priming,2024.1.5,None,2024-11-07 21h06.50.199891 +0530,
poster,,0,6,6,14,,,,,16.83409500005655,,16.80855890014209,16.83409500005655,16.83409500005655,,18.65106500010006,2.4,1.8170053998474032,,,,,,,,,,,,,,,552708,001,2024-11-07_21h06.39.213,word priming,2024.1.5,None,2024-11-07 21h06.50.199891 +0530,
board,,0,7,7,4,,,,,18.677877000067383,,18.651421800022945,18.677877000067383,18.677877000067383,,19.558011300163344,2.4,0.8773922000546008,,,,,,,,,,,,,,,552708,001,2024-11-07_21h06.39.213,word priming,2024.1.5,None,2024-11-07 21h06.50.199891 +0530,
keys,,0,8,8,13,,,,,19.58792069996707,,19.55842090002261,19.58792069996707,19.58792069996707,,20.79696990014054,2.4,1.207757500000298,,,,,,,,,,,,,,,552708,001,2024-11-07_21h06.39.213,word priming,2024.1.5,None,2024-11-07 21h06.50.199891 +0530,
cruise,,0,9,9,11,,,,,20.823242099955678,,20.79743260005489,20.823242099955678,20.823242099955678,,22.33929849998094,4.192592592592593,1.5162533998955041,,,,,,,,,,,,,,,552708,001,2024-11-07_21h06.39.213,word priming,2024.1.5,None,2024-11-07 21h06.50.199891 +0530,
book,,0,10,10,0,,,,,22.365940100047737,,22.33973000012338,22.365940100047737,22.365940100047737,30.376863500103354,68.27597420010716,2.7481481481481485,45.90843369998038,,,,,,,,,,,,,,,552708,001,2024-11-07_21h06.39.213,word priming,2024.1.5,None,2024-11-07 21h06.50.199891 +0530,
laptop,,0,11,11,5,,,,,68.30300260009244,,68.27641100017354,68.30300260009244,68.30300260009244,,69.26677680015564,2.7481481481481485,0.9622249999083579,,,,,,,,,,,,,,,552708,001,2024-11-07_21h06.39.213,word priming,2024.1.5,None,2024-11-07 21h06.50.199891 +0530,
cushion,,0,12,12,1,,,,,69.29392610001378,,69.26712800003588,69.29392610001378,69.29392610001378,,70.27600449998863,2.7481481481481485,0.982408800162375,,,,,,,,,,,,,,,552708,001,2024-11-07_21h06.39.213,word priming,2024.1.5,None,2024-11-07 21h06.50.199891 +0530,
mouse,,0,13,13,8,,,,,70.30289060017094,,70.2763751000166,70.30289060017094,70.30289060017094,,71.30441670003347,2.140740740740741,0.9932313000317663,,,,,,,,,,,,,,,552708,001,2024-11-07_21h06.39.213,word priming,2024.1.5,None,2024-11-07 21h06.50.199891 +0530,
pastry,,0,14,14,9,,,,,71.33239840017632,,71.30501690017991,71.33239840017632,71.33239840017632,,72.94946450018324,3.6259259259259258,1.6154265000950545,,,,,,,,,,,,,,,552708,001,2024-11-07_21h06.39.213,word priming,2024.1.5,None,2024-11-07 21h06.50.199891 +0530,
,_i_n_,,,,,0,0,0,4,72.97500860015862,,,,,,,,,72.95705840014853,72.97500860015862,72.97500860015862,72.97500860015862,0.012397499987855554,80.61967690009624,"ink
",[-0.002777777777777778],[-0.07962962962962963],[1],[0],[0],[7.656789399916306],[],552708,001,2024-11-07_21h06.39.213,word priming,2024.1.5,None,2024-11-07 21h06.50.199891 +0530,
,c_s_i_n,,,,,0,1,1,3,80.63850820017979,,,,,,,,,80.62205290002748,80.63850820017979,80.63850820017979,80.63850820017979,0.004957900149747729,84.50665540015325,coushion,[-0.002777777777777778],[-0.07962962962962963],[1],[0],[0],[3.879188199993223],[],552708,001,2024-11-07_21h06.39.213,word priming,2024.1.5,None,2024-11-07 21h06.50.199891 +0530,
,_p_a_d_,,,,,0,2,2,7,84.52656440017745,,,,,,,,,84.50760370003991,84.52656440017745,84.52656440017745,84.52656440017745,0.003433800069615245,89.26225440017879,keypad,[-0.002777777777777778],[-0.07962962962962963],[1],[0],[0],[4.750737399794161],[],552708,001,2024-11-07_21h06.39.213,word priming,2024.1.5,None,2024-11-07 21h06.50.199891 +0530,
,_oo_,,,,,0,3,3,2,89.27993119996972,,,,,,,,,89.26322980015539,89.27993119996972,89.27993119996972,89.27993119996972,0.004315700149163604,92.29870690009557,book,[-0.002777777777777778],[-0.07962962962962963],[1],[0],[0],[3.0307137998752296],[],552708,001,2024-11-07_21h06.39.213,word priming,2024.1.5,None,2024-11-07 21h06.50.199891 +0530,
,_o_s_,,,,,0,4,4,8,92.3169382000342,,,,,,,,,92.29964740015566,92.3169382000342,92.3169382000342,92.3169382000342,0.003380900016054511,102.30814570002258,,[],[],[],[],[],[],[],552708,001,2024-11-07_21h06.39.213,word priming,2024.1.5,None,2024-11-07 21h06.50.199891 +0530,
,o_a_g_,,,,,0,5,5,9,102.3250506001059,,,,,,,,,102.3090723999776,102.3250506001059,102.3250506001059,102.3250506001059,0.014318499946966767,107.68322500004433,orange,[-0.002777777777777778],[-0.07962962962962963],[1],[0],[0],[5.3685846999287605],[],552708,001,2024-11-07_21h06.39.213,word priming,2024.1.5,None,2024-11-07 21h06.50.199891 +0530,
,_a_e,,,,,0,6,6,0,107.70081920013763,,,,,,,,,107.68438410013914,107.70081920013763,107.70081920013763,107.70081920013763,0.004079800099134445,112.35433050012216,case,[-0.002777777777777778],[-0.07962962962962963],[1],[0],[0],[4.665335800033063],[],552708,001,2024-11-07_21h06.39.213,word priming,2024.1.5,None,2024-11-07 21h06.50.199891 +0530,
,_ea_o_,,,,,0,7,7,5,112.37212370010093,,,,,,,,,112.35556720010936,112.37212370010093,112.37212370010093,112.37212370010093,0.0045068999752402306,118.69423360005021,peacock,[-0.002777777777777778],[-0.07962962962962963],[1],[0],[0],[6.333717100089416],[],552708,001,2024-11-07_21h06.39.213,word priming,2024.1.5,None,2024-11-07 21h06.50.199891 +0530,
,t_g_r,,,,,0,8,8,1,118.71186310006306,,,,,,,,,118.6951775001362,118.71186310006306,118.71186310006306,118.71186310006306,0.003379100002348423,121.88120390009135,tiger,[-0.002777777777777778],[-0.07962962962962963],[1],[0],[0],[3.182150899898261],[],552708,001,2024-11-07_21h06.39.213,word priming,2024.1.5,None,2024-11-07 21h06.50.199891 +0530,
,c_m_r,,,,,0,9,9,6,121.89738410012797,,,,,,,,,121.88215159997344,121.89738410012797,121.89738410012797,121.89738410012797,0.0033131998497992754,125.23484709998593,camera,[-0.002777777777777778],[-0.07962962962962963],[1],[0],[0],[3.348873000126332],[],552708,001,2024-11-07_21h06.39.213,word priming,2024.1.5,None,2024-11-07 21h06.50.199891 +0530,
