study_word,test,trials.thisRepN,trials.thisTrialN,trials.thisN,trials.thisIndex,trials_2.thisRepN,trials_2.thisTrialN,trials_2.thisN,trials_2.thisIndex,thisRow.t,notes,trial.started,text.started,slider.started,text.stopped,trial.stopped,slider.response,slider.rt,test.started,text_2.started,textbox.started,text_3.started,mouse.started,test.stopped,textbox.text,mouse.x,mouse.y,mouse.leftButton,mouse.midButton,mouse.rightButton,mouse.time,mouse.clicked_name,participant,session,date,expName,psychopyVersion,frameRate,expStart,
case,,0,0,0,10,,,,,0.07650279998779297,,0.01239980012178421,0.07650279998779297,0.07650279998779297,8.092192200012505,10.555766799952835,1.1888888888888889,10.513058099895716,,,,,,,,,,,,,,,694758,001,2024-11-07_20h57.30.651,word priming,2024.1.5,None,2024-11-07 20h57.41.043422 +0530,
cushion,,0,1,1,1,,,,,10.587296700105071,,10.556322199990973,10.587296700105071,10.587296700105071,,11.683627000078559,1.1888888888888889,1.0967628001235425,,,,,,,,,,,,,,,694758,001,2024-11-07_20h57.30.651,word priming,2024.1.5,None,2024-11-07 20h57.41.043422 +0530,
police,,0,2,2,12,,,,,11.712281099986285,,11.68399569997564,11.712281099986285,11.712281099986285,,12.801805899944156,1.6555555555555554,1.0812472999095917,,,,,,,,,,,,,,,694758,001,2024-11-07_20h57.30.651,word priming,2024.1.5,None,2024-11-07 20h57.41.043422 +0530,
keys,,0,3,3,13,,,,,12.833013799972832,,12.802407999988645,12.833013799972832,12.833013799972832,,14.260696599958465,2.3074074074074074,1.420187700074166,,,,,,,,,,,,,,,694758,001,2024-11-07_20h57.30.651,word priming,2024.1.5,None,2024-11-07 20h57.41.043422 +0530,
board,,0,4,4,4,,,,,14.293917699949816,,14.261411600047722,14.293917699949816,14.293917699949816,,16.865076699992642,2.425925925925926,2.573023699922487,,,,,,,,,,,,,,,694758,001,2024-11-07_20h57.30.651,word priming,2024.1.5,None,2024-11-07 20h57.41.043422 +0530,
book,,0,5,5,0,,,,,16.891328900121152,,16.865482999943197,16.891328900121152,16.891328900121152,,17.76980119990185,2.425925925925926,0.8781703999266028,,,,,,,,,,,,,,,694758,001,2024-11-07_20h57.30.651,word priming,2024.1.5,None,2024-11-07 20h57.41.043422 +0530,
poster,,0,6,6,14,,,,,17.79670329997316,,17.77023130003363,17.79670329997316,17.79670329997316,,19.38011429994367,2.888888888888889,1.5833621001802385,,,,,,,,,,,,,,,694758,001,2024-11-07_20h57.30.651,word priming,2024.1.5,None,2024-11-07 20h57.41.043422 +0530,
laptop,,0,7,7,5,,,,,19.407924300059676,,19.38047829992138,19.407924300059676,19.407924300059676,,21.08396410010755,1.8407407407407408,1.6760505998972803,,,,,,,,,,,,,,,694758,001,2024-11-07_20h57.30.651,word priming,2024.1.5,None,2024-11-07 20h57.41.043422 +0530,
chart,,0,8,8,6,,,,,21.11270450009033,,21.084317500004545,21.11270450009033,21.11270450009033,,22.544206199934706,3.6333333333333333,1.4320386999752373,,,,,,,,,,,,,,,694758,001,2024-11-07_20h57.30.651,word priming,2024.1.5,None,2024-11-07 20h57.41.043422 +0530,
pastry,,0,9,9,9,,,,,22.571696399943903,,22.5445950999856,22.571696399943903,22.571696399943903,,23.517935199895874,3.6333333333333333,0.9445565000642091,,,,,,,,,,,,,,,694758,001,2024-11-07_20h57.30.651,word priming,2024.1.5,None,2024-11-07 20h57.41.043422 +0530,
T-shirt,,0,10,10,7,,,,,23.551451199920848,,23.518345500109717,23.551451199920848,23.551451199920848,,24.50813649990596,3.6333333333333333,0.955389300128445,,,,,,,,,,,,,,,694758,001,2024-11-07_20h57.30.651,word priming,2024.1.5,None,2024-11-07 20h57.41.043422 +0530,
marble,,0,11,11,3,,,,,24.53561619995162,,24.508595899911597,24.53561619995162,24.53561619995162,,25.59177769999951,3.6333333333333333,1.056285300059244,,,,,,,,,,,,,,,694758,001,2024-11-07_20h57.30.651,word priming,2024.1.5,None,2024-11-07 20h57.41.043422 +0530,
cruise,,0,12,12,11,,,,,25.619467600015923,,25.592211700044572,25.619467600015923,25.619467600015923,,26.53263400006108,3.6333333333333333,0.902954800054431,,,,,,,,,,,,,,,694758,001,2024-11-07_20h57.30.651,word priming,2024.1.5,None,2024-11-07 20h57.41.043422 +0530,
mouse,,0,13,13,8,,,,,26.568105400074273,,26.533443100051954,26.568105400074273,26.568105400074273,,27.990365399979055,3.6333333333333333,1.4227815000340343,,,,,,,,,,,,,,,694758,001,2024-11-07_20h57.30.651,word priming,2024.1.5,None,2024-11-07 20h57.41.043422 +0530,
phone,,0,14,14,2,,,,,28.016947000054643,,27.990951899904758,28.016947000054643,28.016947000054643,,30.004157500108704,2.7111111111111112,1.9845716999843717,,,,,,,,,,,,,,,694758,001,2024-11-07_20h57.30.651,word priming,2024.1.5,None,2024-11-07 20h57.41.043422 +0530,
,_o_s_,,,,,0,0,0,8,30.03376889997162,,,,,,,,,30.011151700047776,30.03376889997162,30.03376889997162,30.03376889997162,0.011296799872070551,40.0109691999387,,[],[],[],[],[],[],[],694758,001,2024-11-07_20h57.30.651,word priming,2024.1.5,None,2024-11-07 20h57.41.043422 +0530,
,_a_e,,,,,0,1,1,0,40.02753520011902,,,,,,,,,40.012172600021586,40.02753520011902,40.02753520011902,40.02753520011902,0.010434400057420135,44.583636600058526,vase,[0.05462962962962963],[-0.09166666666666666],[1],[0],[0],[4.5682020001113415],[],694758,001,2024-11-07_20h57.30.651,word priming,2024.1.5,None,2024-11-07 20h57.41.043422 +0530,
,o_a_g_,,,,,0,2,2,9,44.60386979999021,,,,,,,,,44.584597300039604,44.60386979999021,44.60386979999021,44.60386979999021,0.0052194001618772745,50.6897613001056,orange,[0.05462962962962963],[-0.09166666666666666],[1],[0],[0],[6.099540899973363],[],694758,001,2024-11-07_20h57.30.651,word priming,2024.1.5,None,2024-11-07 20h57.41.043422 +0530,
,_p_a_d_,,,,,0,3,3,7,50.70672730007209,,,,,,,,,50.69158699992113,50.70672730007209,50.70672730007209,50.70672730007209,0.003947500139474869,58.04858530010097,keypad,[0.05462962962962963],[-0.09166666666666666],[1],[0],[0],[7.352772099897265],[],694758,001,2024-11-07_20h57.30.651,word priming,2024.1.5,None,2024-11-07 20h57.41.043422 +0530,
,c_m_r,,,,,0,4,4,6,58.0685282999184,,,,,,,,,58.049517899984494,58.0685282999184,58.0685282999184,58.0685282999184,0.004038900136947632,62.46970449993387,camera,[0.05462962962962963],[-0.09166666666666666],[1],[0],[0],[4.415667700115591],[],694758,001,2024-11-07_20h57.30.651,word priming,2024.1.5,None,2024-11-07 20h57.41.043422 +0530,
,_oo_,,,,,0,5,5,2,62.48565550008789,,,,,,,,,62.47066210000776,62.48565550008789,62.48565550008789,62.48565550008789,0.0033197999000549316,65.75744149996899,book,[0.05462962962962963],[-0.09166666666666666],[1],[0],[0],[3.283021599985659],[],694758,001,2024-11-07_20h57.30.651,word priming,2024.1.5,None,2024-11-07 20h57.41.043422 +0530,
,t_g_r,,,,,0,6,6,1,65.77480449993163,,,,,,,,,65.75869789998978,65.77480449993163,65.77480449993163,65.77480449993163,0.004418299999088049,68.91080339998007,tiger,[0.05462962962962963],[-0.09166666666666666],[1],[0],[0],[3.1471190999727696],[],694758,001,2024-11-07_20h57.30.651,word priming,2024.1.5,None,2024-11-07 20h57.41.043422 +0530,
,c_s_i_n,,,,,0,7,7,3,68.93053600005805,,,,,,,,,68.91181680001318,68.93053600005805,68.93053600005805,68.93053600005805,0.0044739998411387205,73.61568409996107,coushion,[0.05462962962962963],[-0.09166666666666666],[1],[0],[0],[4.698982700007036],[],694758,001,2024-11-07_20h57.30.651,word priming,2024.1.5,None,2024-11-07 20h57.41.043422 +0530,
,_i_n_,,,,,0,8,8,4,73.63150230003521,,,,,,,,,73.61663890001364,73.63150230003521,73.63150230003521,73.63150230003521,0.003950800048187375,79.9225330001209,think,[0.05462962962962963],[-0.09166666666666666],[1],[0],[0],[6.301489399978891],[],694758,001,2024-11-07_20h57.30.651,word priming,2024.1.5,None,2024-11-07 20h57.41.043422 +0530,
,_ea_o_,,,,,0,9,9,5,79.94196050008759,,,,,,,,,79.92349350010045,79.94196050008759,79.94196050008759,79.94196050008759,0.0031852000392973423,85.12859330000356,peacock,[0.05462962962962963],[-0.09166666666666666],[1],[0],[0],[5.201262600021437],[],694758,001,2024-11-07_20h57.30.651,word priming,2024.1.5,None,2024-11-07 20h57.41.043422 +0530,
